Folder: Uni-Vigo/tables

File: Phase-1.csv
Material;Layer Height (mm);Infill Pattern;Infill Density (%);Printing Speed (mm/s);Max Load (kN);Young Modulus (MPa)
Virgin;0.15;Tri-hex;60;40;2,21;808,50
Virgin;0.3;Tri-hex;60;80;2,16;826,31
Virgin;0.15;Grid;60;80;2,24;788,51
Virgin;0.3;Grid;100;80;3,60;1143,72
Virgin;0.3;Tri-hex;100;40;3,62;1160,47
Virgin;0.15;Tri-hex;100;80;3,81;1127,84
Virgin;0.15;Grid;100;40;3,79;1132,18
Virgin;0.3;Grid;60;40;2,16;834,48
Recycled;0.15;Tri-hex;60;40;2,16;834,48
Recycled;0.3;Tri-hex;60;80;2,16;875,78
Recycled;0.3;Grid;60;40;2,15;852,18
Recycled;0.15;Tri-hex;100;80;3,38;1058,60
Recycled;0.3;Tri-hex;100;40;3,37;1106,42
Recycled;0.15;Grid;60;80;2,05;845,71
Recycled;0.15;Grid;100;40;3,53;1126,03
Recycled;0.3;Grid;100;80;3,49;1152,35

File: Phase-2.csv
Material;Infill Density (%);Max Load (kN);Tensile Strength (MPa)
Virgin;100;3,28940063476563;50,6061636117789
Virgin;40;1,87192797851563;41,4143358078679
Virgin;55;1,97978735351563;39,4773151249378
Virgin;70;2,14508715820313;38,9308014192946
Virgin;85;2,29569018554688;38,2296450549022
Recycled;100;3,02975708007813;46,6116473858174
Recycled;40;2,14508715800000;47,4576804867257
Recycled;55;1,93454138183594;38,5751023297296
Recycled;70;2,08284106445313;37,8011082477882
Recycled;85;2,24160034179688;37,3288982813802